Folder: xrf-thickness-studies/ellipsometry/ELF/2546

File: 2546 optical constants.txt
All Layer Optical Constants
Wavelength (nm)	n, GaP Oxide	n, B-Spline	n, SI_JAW	k, GaP Oxide	k, B-Spline	k, SI_JAW
211.577	1.806929	1.438127	1.123567	0.003440	2.976925	3.022594
216.34	1.790912	1.503418	1.192738	0.002132	3.171439	3.123678
221.104	1.776367	1.576545	1.271268	0.001173	3.407423	3.229531
225.869	1.763291	1.727862	1.368742	0.000510	3.722153	3.347950
230.634	1.751450	2.071801	1.535902	0.000000	4.092263	3.427399
235.399	1.740412	2.683318	1.628942	0.000000	4.299057	3.408360
240.166	1.730382	3.307758	1.645569	0.000000	4.157471	3.442288
244.933	1.721282	3.737630	1.653081	0.000000	3.819635	3.526508
249.7	1.712840	3.944826	1.662727	0.000000	3.466631	3.653296
254.468	1.705125	4.077398	1.685985	0.000000	3.232809	3.826319
259.236	1.698043	4.252819	1.740836	0.000000	2.991783	4.047571
264.005	1.691507	4.366313	1.847700	0.000000	2.649795	4.312377
268.775	1.685311	4.305589	2.025317	0.000000	2.331524	4.612829
273.545	1.679574	4.181800	2.309657	0.000000	2.136867	4.948874
278.315	1.674275	4.066329	2.773091	0.000000	2.031894	5.234608
283.086	1.669457	3.979576	3.309460	0.000000	1.979179	5.401219
287.857	1.664845	3.919105	4.033906	0.000000	1.953549	5.434958
292.629	1.660576	3.874986	4.724962	0.000000	1.949218	5.040545
297.401	1.656662	3.855155	5.042196	0.000000	1.966324	4.484626
302.173	1.652795	3.857387	5.116897	0.000000	1.986446	4.052912
306.946	1.649359	3.862997	5.120307	0.000000	2.021057	3.759509
311.719	1.646225	3.899738	5.117527	0.000000	2.088085	3.555275
316.492	1.643136	3.981894	5.125203	0.000000	2.150876	3.403207
321.266	1.640297	4.067109	5.145371	0.000000	2.227867	3.282828
326.04	1.637535	4.252117	5.176298	0.000000	2.394853	3.183554
330.814	1.634861	4.693623	5.216225	0.000000	2.455103	3.100694
335.589	1.632547	5.167571	5.265495	0.000000	2.169764	3.033575
340.363	1.630047	5.382302	5.327271	0.000000	1.684100	2.983178
345.138	1.627926	5.353304	5.408265	0.000000	1.239195	2.951328
349.914	1.626079	5.209647	5.520452	0.000000	0.912655	2.941573
354.689	1.624047	5.022624	5.694625	0.000000	0.700749	2.959714
359.465	1.622326	4.854041	6.008857	0.000000	0.582635	2.973300
364.241	1.620375	4.727514	6.505469	0.000000	0.507615	2.790610
369.016	1.618718	4.625009	6.919016	0.000000	0.442185	2.242430
373.792	1.617329	4.530985	6.959728	0.000000	0.386811	1.559561
378.569	1.615884	4.444584	6.738420	0.000000	0.344376	1.035435
383.345	1.614367	4.368303	6.444571	0.000000	0.312668	0.701055
388.121	1.612915	4.302293	6.161996	0.000000	0.287908	0.499205
392.898	1.611711	4.245369	5.917501	0.000000	0.266988	0.380703
397.674	1.610538	4.195874	5.715893	0.000000	0.247589	0.310244
402.451	1.609388	4.151070	5.551841	0.000000	0.227950	0.264420
407.227	1.608262	4.107786	5.416060	0.000000	0.209428	0.229918
412.004	1.607165	4.066076	5.299551	0.000000	0.194897	0.200903
416.781	1.606095	4.029444	5.197213	0.000000	0.185993	0.175767
421.557	1.605094	4.001726	5.105204	0.000000	0.178813	0.153811
426.334	1.604273	3.982031	5.021740	0.000000	0.167921	0.134800
431.11	1.603325	3.965527	4.945444	0.000000	0.149354	0.118429
435.886	1.602370	3.946263	4.875263	0.000000	0.124777	0.104377
440.663	1.601602	3.922132	4.810478	0.000000	0.097761	0.092380
445.439	1.600849	3.892912	4.750510	0.000000	0.071387	0.082186
450.215	1.600108	3.859530	4.694870	0.000000	0.047858	0.073558
454.991	1.599389	3.823110	4.643149	0.000000	0.028700	0.066281
459.767	1.598676	3.785221	4.594984	0.000000	0.015318	0.060160
464.542	1.597987	3.748726	4.550052	0.000000	0.008357	0.055020
469.318	1.597353	3.716075	4.508152	0.000000	0.006001	0.050730
474.093	1.596854	3.687947	4.468971	0.000000	0.006026	0.047134
478.868	1.596298	3.663954	4.432238	0.000000	0.006390	0.044108
483.643	1.595658	3.642530	4.397874	0.000000	0.005918	0.041574
488.418	1.595098	3.622497	4.365556	0.000000	0.004868	0.039418
493.192	1.594637	3.603379	4.335220	0.000000	0.003631	0.037583
497.966	1.594182	3.585018	4.306602	0.000000	0.002558	0.035989
502.74	1.593739	3.567539	4.279689	0.000000	0.001863	0.034600
507.513	1.593258	3.551054	4.254244	0.000000	0.001465	0.033359
512.286	1.592690	3.535553	4.230155	0.000000	0.001248	0.032232
517.059	1.592135	3.520970	4.207370	0.000000	0.001106	0.031196
521.832	1.591726	3.507195	4.185748	0.000000	0.000950	0.030227
526.604	1.591316	3.494091	4.165187	0.000000	0.000768	0.029307
531.375	1.591022	3.481574	4.145611	0.000000	0.000590	0.028426
536.147	1.590761	3.469593	4.126945	0.000000	0.000445	0.027576
540.918	1.590457	3.458117	4.109124	0.000000	0.000355	0.026753
545.688	1.590081	3.447141	4.092087	0.000000	0.000339	0.025953
550.458	1.589705	3.436667	4.075783	0.000000	0.000380	0.025174
555.228	1.589344	3.426678	4.060168	0.000000	0.000449	0.024416
559.997	1.588984	3.417147	4.045193	0.000000	0.000522	0.023678
564.765	1.588656	3.408042	4.030815	0.000000	0.000575	0.022959
569.533	1.588427	3.399320	4.016996	0.000000	0.000589	0.022258
574.301	1.588198	3.390934	4.003698	0.000000	0.000562	0.021576
579.068	1.587921	3.382847	3.990912	0.000000	0.000506	0.020913
583.834	1.587593	3.375036	3.978602	0.000000	0.000434	0.020267
588.6	1.587265	3.367482	3.966724	0.000000	0.000357	0.019639
593.366	1.587009	3.360173	3.955252	0.000000	0.000285	0.019027
598.13	1.586801	3.353101	3.944205	0.000000	0.000227	0.018433
602.894	1.586592	3.346263	3.933522	0.000000	0.000183	0.017855
607.658	1.586390	3.339650	3.923184	0.000000	0.000152	0.017292
612.42	1.586191	3.333256	3.913211	0.000000	0.000132	0.016746
617.182	1.585993	3.327070	3.903537	0.000000	0.000121	0.016213
621.944	1.585798	3.321086	3.894193	0.000000	0.000117	0.015697
626.705	1.585609	3.315294	3.885124	0.000000	0.000118	0.015194
631.465	1.585420	3.309686	3.876350	0.000000	0.000123	0.014706
636.224	1.585232	3.304256	3.867828	0.000000	0.000131	0.014231
640.982	1.585053	3.298995	3.859581	0.000000	0.000139	0.013770
645.74	1.584873	3.293895	3.851553	0.000000	0.000146	0.013321
650.497	1.584694	3.288950	3.843786	0.000000	0.000151	0.012886
655.253	1.584520	3.284152	3.836228	0.000000	0.000152	0.012462
660.009	1.584350	3.279494	3.828882	0.000000	0.000148	0.012050
664.763	1.584179	3.274966	3.821756	0.000000	0.000139	0.011651
669.517	1.584009	3.270564	3.814813	0.000000	0.000126	0.011262
674.27	1.583847	3.266280	3.808062	0.000000	0.000111	0.010885
679.022	1.583686	3.262109	3.801507	0.000000	0.000094	0.010519
683.773	1.583524	3.258046	3.795117	0.000000	0.000076	0.010163
688.523	1.583363	3.254088	3.788890	0.000000	0.000059	0.009817
693.273	1.583210	3.250232	3.782836	0.000000	0.000044	0.009481
698.021	1.583058	3.246472	3.776941	0.000000	0.000031	0.009156
702.768	1.582906	3.242808	3.771192	0.000000	0.000021	0.008839
707.515	1.582753	3.239236	3.765585	0.000000	0.000014	0.008532
712.26	1.582663	3.235754	3.760115	0.000000	0.000008	0.008233
717.005	1.582591	3.232358	3.754784	0.000000	0.000005	0.007943
721.748	1.582519	3.229047	3.749591	0.000000	0.000002	0.007662
726.49	1.582448	3.225817	3.744521	0.000000	0.000001	0.007390
731.232	1.582351	3.222665	3.739571	0.000000	0.000000	0.007125
735.972	1.582216	3.219589	3.734738	0.000000	0.000000	0.006868
740.711	1.582080	3.216586	3.730018	0.000000	-0.000000	0.006618
745.45	1.581945	3.213654	3.725408	0.000000	0.000000	0.006376
750.187	1.581809	3.210789	3.720903	0.000000	0.000000	0.006141
754.922	1.581725	3.207990	3.716501	0.000000	-0.000000	0.005913
759.657	1.581662	3.205254	3.712199	0.000000	0.000000	0.005692
764.391	1.581598	3.202580	3.707993	0.000000	-0.000000	0.005478
769.123	1.581534	3.199965	3.703881	0.000000	0.000000	0.005270
773.854	1.581470	3.197408	3.699860	0.000000	0.000000	0.005068
778.585	1.581364	3.194906	3.695927	0.000000	-0.000000	0.004873
783.313	1.581245	3.192458	3.692079	0.000000	-0.000000	0.004684
788.041	1.581125	3.190061	3.688313	0.000000	0.000000	0.004500
792.767	1.581006	3.187716	3.684628	0.000000	0.000000	0.004322
797.492	1.580886	3.185419	3.681019	0.000000	0.000000	0.004150
802.216	1.580796	3.183169	3.677486	0.000000	-0.000000	0.003983
806.939	1.580740	3.180965	3.674025	0.000000	0.000000	0.003821
811.66	1.580684	3.178805	3.670634	0.000000	-0.000000	0.003664
816.38	1.580628	3.176689	3.667310	0.000000	-0.000000	0.003512
821.098	1.580572	3.174613	3.664055	0.000000	0.000000	0.003365
825.815	1.580516	3.172578	3.660872	0.000000	0.000000	0.003223
830.531	1.580463	3.170582	3.657753	0.000000	-0.000000	0.003085
835.245	1.580411	3.168623	3.654692	0.000000	0.000000	0.002952
839.958	1.580359	3.166700	3.651690	0.000000	-0.000000	0.002823
844.67	1.580306	3.164812	3.648744	0.000000	0.000000	0.002698
849.38	1.580254	3.162956	3.645851	0.000000	0.000001	0.002577
854.089	1.580202	3.161132	3.643027	0.000000	0.000003	0.002461
858.796	1.580152	3.159338	3.640254	0.000000	0.000007	0.002349
863.502	1.580104	3.157573	3.637530	0.000000	0.000014	0.002240
868.206	1.580055	3.155838	3.634853	0.000000	0.000025	0.002135
872.909	1.580006	3.154131	3.632226	0.000000	0.000040	0.002033
877.61	1.579957	3.152452	3.629658	0.000000	0.000060	0.001936
882.309	1.579909	3.150800	3.627134	0.000000	0.000085	0.001842
887.007	1.579861	3.149176	3.624650	0.000000	0.000116	0.001750
891.704	1.579816	3.147580	3.622211	0.000000	0.000154	0.001662
896.399	1.579770	3.146010	3.619826	0.000000	0.000198	0.001578
901.092	1.579725	3.144469	3.617479	0.000000	0.000250	0.001496
904.22	1.579695	3.143456	3.615932	0.000000	0.000289	0.001443