Folder: xrf-thickness-studies/ellipsometry/ELF/3076

File: 3076 optical constants.txt
All Layer Optical Constants
Wavelength (nm)	n, GaP Oxide	n, B-Spline	n, SI_JAW	k, GaP Oxide	k, B-Spline	k, SI_JAW
211.577	1.806929	1.451045	1.123567	0.003440	2.956504	3.022594
217.928	1.786005	1.520047	1.217744	0.001848	3.215400	3.158371
224.28	1.767480	1.647378	1.331440	0.000729	3.579219	3.306002
230.634	1.751450	2.047856	1.535902	0.000000	4.073940	3.427399
236.988	1.736960	2.854650	1.637225	0.000000	4.281661	3.412519
243.344	1.724156	3.592623	1.650725	0.000000	3.972439	3.493745
249.7	1.712840	3.940786	1.662727	0.000000	3.492535	3.653296
256.057	1.702677	4.135390	1.699746	0.000000	3.159907	3.894793
262.416	1.693550	4.319358	1.805106	0.000000	2.766034	4.219814
268.775	1.685311	4.277880	2.025317	0.000000	2.359243	4.612829
275.135	1.677697	4.126868	2.444857	0.000000	2.123623	5.060009
281.496	1.670964	3.997300	3.122405	0.000000	2.026050	5.347751
287.857	1.664845	3.920120	4.033906	0.000000	1.983919	5.434958
294.219	1.659196	3.869886	4.871256	0.000000	1.985790	4.851742
300.582	1.654115	3.867997	5.105662	0.000000	2.005305	4.179348
306.946	1.649359	3.876226	5.120307	0.000000	2.051398	3.759509
313.31	1.645117	3.953403	5.118678	0.000000	2.125636	3.500050
319.675	1.641236	4.040382	5.137349	0.000000	2.211643	3.320253
326.04	1.637535	4.317532	5.176298	0.000000	2.415641	3.183554
332.406	1.634098	4.873270	5.231498	0.000000	2.336590	3.076511
338.772	1.630847	5.307247	5.304890	0.000000	1.882143	2.997952
345.138	1.627926	5.395423	5.408265	0.000000	1.250186	2.951328
351.505	1.625392	5.133649	5.568836	0.000000	0.804083	2.944403
357.873	1.622901	4.889445	5.882858	0.000000	0.643694	2.976306
364.241	1.620375	4.748068	6.505469	0.000000	0.523426	2.790610
370.608	1.618206	4.598901	6.973244	0.000000	0.417513	2.009657
376.977	1.616396	4.465769	6.828031	0.000000	0.366622	1.185566
383.345	1.614367	4.375080	6.444571	0.000000	0.331026	0.701055
389.713	1.612514	4.295687	6.075556	0.000000	0.287609	0.452196
396.082	1.610927	4.215105	5.778327	0.000000	0.255781	0.329924
402.451	1.609388	4.150084	5.551841	0.000000	0.239320	0.264420
408.82	1.607896	4.102907	5.375411	0.000000	0.220717	0.219767
415.188	1.606448	4.057634	5.230059	0.000000	0.195313	0.183777
421.557	1.605094	4.010078	5.105204	0.000000	0.175563	0.153811
427.926	1.603987	3.973387	4.995576	0.000000	0.165199	0.129068
434.294	1.602663	3.952635	4.898025	0.000000	0.148585	0.108820
440.663	1.601602	3.932964	4.810478	0.000000	0.113454	0.092380
447.031	1.600602	3.896760	4.731504	0.000000	0.070741	0.079147
453.399	1.599627	3.845132	4.659976	0.000000	0.037729	0.068569
459.767	1.598676	3.792203	4.594984	0.000000	0.021294	0.060160
466.134	1.597757	3.746396	4.535749	0.000000	0.014850	0.053500
472.501	1.597020	3.708235	4.481748	0.000000	0.011696	0.048264
478.868	1.596298	3.674642	4.432238	0.000000	0.009283	0.044108
485.235	1.595445	3.644256	4.386886	0.000000	0.007667	0.040817
491.601	1.594791	3.616708	4.345124	0.000000	0.006891	0.038164
497.966	1.594182	3.591943	4.306602	0.000000	0.006605	0.035989
504.331	1.593591	3.569647	4.271029	0.000000	0.006294	0.034170
510.695	1.592880	3.549243	4.238045	0.000000	0.005536	0.032597
517.059	1.592135	3.529972	4.207370	0.000000	0.004392	0.031196
523.422	1.591589	3.511490	4.178761	0.000000	0.003248	0.029914
529.785	1.591110	3.493759	4.152010	0.000000	0.002453	0.028715
536.147	1.590761	3.477021	4.126945	0.000000	0.002169	0.027576
542.508	1.590331	3.461442	4.103367	0.000000	0.002216	0.026484
548.868	1.589831	3.446999	4.081128	0.000000	0.002389	0.025431
555.228	1.589344	3.433567	4.060168	0.000000	0.002510	0.024416
561.586	1.588865	3.420937	4.040328	0.000000	0.002512	0.023436
567.944	1.588503	3.408969	4.021543	0.000000	0.002430	0.022490
574.301	1.588198	3.397583	4.003698	0.000000	0.002304	0.021576
580.657	1.587811	3.386726	3.986766	0.000000	0.002166	0.020696
587.012	1.587374	3.376370	3.970632	0.000000	0.002035	0.019846
593.366	1.587009	3.366487	3.955252	0.000000	0.001910	0.019027
599.718	1.586731	3.357043	3.940601	0.000000	0.001791	0.018239
606.07	1.586456	3.348008	3.926600	0.000000	0.001678	0.017478
612.42	1.586191	3.339348	3.913211	0.000000	0.001572	0.016746
618.77	1.585927	3.331033	3.900396	0.000000	0.001486	0.016040
625.118	1.585672	3.323045	3.888120	0.000000	0.001432	0.015360
631.465	1.585420	3.315373	3.876350	0.000000	0.001423	0.014706
637.81	1.585172	3.308016	3.865058	0.000000	0.001469	0.014076
644.154	1.584933	3.300988	3.854212	0.000000	0.001572	0.013469
650.497	1.584694	3.294302	3.843786	0.000000	0.001703	0.012886
656.839	1.584463	3.287945	3.833757	0.000000	0.001828	0.012323
663.179	1.584236	3.281897	3.824098	0.000000	0.001915	0.011782
669.517	1.584009	3.276126	3.814813	0.000000	0.001939	0.011262
675.854	1.583793	3.270587	3.805863	0.000000	0.001877	0.010762
682.189	1.583578	3.265218	3.797225	0.000000	0.001735	0.010280
688.523	1.583363	3.259983	3.788890	0.000000	0.001544	0.009817
694.855	1.583159	3.254865	3.780859	0.000000	0.001333	0.009372
701.186	1.582956	3.249855	3.773086	0.000000	0.001130	0.008943
707.515	1.582753	3.244956	3.765585	0.000000	0.000958	0.008532
713.842	1.582639	3.240176	3.758330	0.000000	0.000839	0.008136
720.167	1.582543	3.235540	3.751310	0.000000	0.000777	0.007755
726.49	1.582448	3.231061	3.744521	0.000000	0.000759	0.007390
732.812	1.582306	3.226742	3.737944	0.000000	0.000774	0.007038
739.132	1.582125	3.222578	3.731576	0.000000	0.000808	0.006700
745.45	1.581945	3.218566	3.725408	0.000000	0.000852	0.006376
751.765	1.581768	3.214695	3.719417	0.000000	0.000895	0.006064
758.079	1.581683	3.210955	3.713625	0.000000	0.000929	0.005765
764.391	1.581598	3.207327	3.707993	0.000000	0.000954	0.005478
770.7	1.581513	3.203801	3.702527	0.000000	0.000975	0.005202
777.008	1.581404	3.200369	3.697231	0.000000	0.000998	0.004938
783.313	1.581245	3.197029	3.692079	0.000000	0.001028	0.004684
789.617	1.581085	3.193777	3.687067	0.000000	0.001070	0.004439
795.917	1.580926	3.190612	3.682210	0.000000	0.001127	0.004206
802.216	1.580796	3.187536	3.677486	0.000000	0.001205	0.003983
808.513	1.580722	3.184554	3.672888	0.000000	0.001306	0.003768
814.807	1.580647	3.181673	3.668412	0.000000	0.001424	0.003562
821.098	1.580572	3.178893	3.664055	0.000000	0.001554	0.003365
827.387	1.580498	3.176213	3.659823	0.000000	0.001686	0.003176
833.674	1.580428	3.173631	3.655704	0.000000	0.001815	0.002996
839.958	1.580359	3.171141	3.651690	0.000000	0.001935	0.002823
846.24	1.580289	3.168738	3.647779	0.000000	0.002040	0.002658
852.519	1.580219	3.166415	3.643968	0.000000	0.002125	0.002500
858.796	1.580152	3.164164	3.640254	0.000000	0.002187	0.002349
865.07	1.580087	3.161974	3.636633	0.000000	0.002220	0.002205
871.341	1.580022	3.159832	3.633102	0.000000	0.002231	0.002067
877.61	1.579957	3.157732	3.629658	0.000000	0.002225	0.001936
883.876	1.579893	3.155667	3.626300	0.000000	0.002208	0.001811
890.139	1.579831	3.153637	3.623024	0.000000	0.002187	0.001691
896.399	1.579770	3.151639	3.619826	0.000000	0.002167	0.001578
902.656	1.579710	3.149674	3.616705	0.000000	0.002153	0.001470
908.91	1.579650	3.147742	3.613658	0.000000	0.002148	0.001367
915.162	1.579589	3.145845	3.610682	0.000000	0.002158	0.001269
921.41	1.579531	3.143984	3.607776	0.000000	0.002186	0.001177
927.656	1.579475	3.142166	3.604935	0.000000	0.002235	0.001089
933.898	1.579419	3.140398	3.602160	0.000000	0.002304	0.001005
940.138	1.579363	3.138684	3.599445	0.000000	0.002388	0.000926
946.374	1.579307	3.137024	3.596794	0.000000	0.002483	0.000852
952.607	1.579251	3.135420	3.594207	0.000000	0.002585	0.000782
958.837	1.579199	3.133870	3.591678	0.000000	0.002689	0.000716
965.063	1.579147	3.132374	3.589203	0.000000	0.002792	0.000654
971.286	1.579096	3.130930	3.586780	0.000000	0.002891	0.000595
977.507	1.579044	3.129536	3.584407	0.000000	0.002982	0.000540
983.723	1.578992	3.128190	3.582086	0.000000	0.003063	0.000489
989.937	1.578941	3.126887	3.579824	0.000000	0.003130	0.000441
996.146	1.578924	3.125626	3.577607	0.000000	0.003183	0.000397
999.25	1.578924	3.125010	3.576509	0.000000	0.003203	0.000375